sentences,cluster_ids,ids,wait_start,trial_sent_start,response,response_time
"'Tornato in Inghilterra, Musgrove diviene dal 1981 al 1984 l''allenatore dell''Exeter City.'",303,300996,9.80E-05,0.0003281,'1',1.141542437
'Per un periodo visse nella stessa pensione con Albert Ammons e Meade Lux Lewis.',234,231711,4.91584907,6.00004636,'4',1.215742326
'Si tratta di una storia d amore scritta intorno al 1600 da Vitsentzos Kornaros.',90,94797,11.21766027,12.00005095,'5',0.944660893
"'Viene convocato per gli Europei 2016 in Francia, in sostituzione dell''infortunato Alan Dzagoev.'",305,302671,16.91753341,18.00005315,'3',1.85225981
"'Il giornale venne venduto a Hearst Corporation nel 1972, che pubblicava il rivale American Record.'",244,244328,23.63245073,24.00015585,'3',2.749386976
"'La fullerite ultradura C ha una durezza molto elevata, superiore a quella del diamante.'",201,201094,30.90258167,30.90262415,'4',1.772546679
"'Quindi, passando attraverso diversi proprietari, giunse ad essere la sede odierna della Guardia di Finanza.'",55,54167,36.6334448,36.63348283,'5',0.608356017
"'Tre settimane dopo, invece, avvenne il secondo scontro nel quale Bruto fu rovinosamente battuto.'",181,183987,41.44851401,42.00000634,'5',2.008046084
"'Per Nancy Enright, Boromir è lo stereotipo tradizionale del potere maschile, mentre Ralph C.'",142,141664,48.02126151,48.02130003,'1',1.553172984
"'L Accademia ha correntemente circa 900 studenti, almeno un quarto di essi è straniero.'",368,371454,53.63516445,54.00000545,'2',2.385290721
"'A nord l''isola viene attraversata dal Ponte Massimiliano, che porta verso il Maximilianeum.'",161,164306,60.34761839,60.34765749,'4',3.504319158
"'Il nome del minerale è stato attribuito in onore di Pavel''Ivanovich Stepanov, geologo russo.'",200,199805,67.60437093,67.60440994,'5',0.921065225
'La biodisponibilità assoluta della molecola dopo somministrazione per os è all''incirca del 70%.',74,75586,72.50032667,72.50036669,'2',1.513069159
'Con la ha preso parte ai Giochi olimpici 1980 e ai FIBA EuroBasket 1983.',40,46370,77.85191236,78.0000038,'1',1.501087235
"'Esposizioni a lungo termine a solventi contenenti pseudocumene, può causare nervosia, tensione e bronchiti.'",76,74639,83.55246638,84.00000514,'2',3.839525222
"'Tuttavia i Rybaxel perderanno di nuovo contro i loro avversari, Cody Rhodes e Goldust.'",336,340722,91.8337872,91.83382557,'3',2.331281369
'Ciò rese l''Estonia il primo paese ad avere relazioni con i sovietici bolscevichi.',248,246941,98.1818939,98.18195626,'5',1.407076523
'Scrisse anche un contributo per la bibliografia del parlamentoPerplessità e riserve sulla riforma dei bilanci.',250,250407,103.3675221,103.3675599,'2',2.465056777
'La Grenadier Miniatures supportò il gioco con una linea di miniature prodotte su licenza.',154,154098,110.0336883,110.0337306,'3',1.700393165
'Ben presto incominciarono a circolare voci sulla sua intensa fede e si parlava di miracoli.',292,288214,115.7355097,115.7355482,'3',2.628273174
"'In Italia, la famiglia è rappresentata solo nel Nord, con la specie Cylindrotoma distinctissima.'",321,320690,122.5631954,122.563267,'1',2.443979202
'Il tracciato prosegue fino al raggiungimento del litorale che costeggia ininterrottamente fino al suo termine.',285,286168,128.9803231,128.9803616,'2',2.05443779
"'La divisa casalinga era costituita da una maglietta a strisce rossonere, pantaloncini e calzettoni neri.'",333,334176,135.251304,135.2513432,'5',1.387541815
'Il numero dei suoi locutori varia fortemente in funzione della metodologia impiegata per calcolarlo.',172,172120,140.815515,140.815557,'3',2.124311999
"'Giulia Pincerato inizia la sua carriera pallavolistica nella squadra giovanile di Legnaro, nel 1999.'",382,381433,146.9164077,146.9164465,'4',1.177706573
"'È parte dell''itinerario che congiunge Berlino alla Slesia, proseguendo in territorio polacco come A18.'",288,285081,152.0632379,152.0632814,'4',2.047484182
'L''autorità aeroportuale ha in concessione l''aeroporto dalla città di New York dal 1947.',7,8273,158.0647522,158.064821,'5',1.128371751
'Agli US Open esce al primo turno di qualificazioni contro la greca Maria Sakkari.',361,360599,163.0834949,163.0835339,'4',1.238018843
'Numerosi esempi sono stati trovati nelle carte del notaio Giacomo Zabbara risalenti al 1486-1501.',174,173312,168.3157658,168.3158039,'4',3.242133122
'Vinse anche una tappa al Giro di Svizzera nel 1946 e la Zurigo-Losanna nel 1947.',104,106840,175.5493308,175.5493869,'5',0.722942683
'Sempre il 25 ottobre viene festeggiato a Monti di cui è anche Santo patrono.',294,293764,180.5007804,180.5008187,'4',1.568612019
"'In quella stagione si classificò quarto nella classifica finale del motomondiale, sua migliore prestazione.'",217,214057,186.0824657,186.0825048,'5',1.369058081
"'La richiesta viene accolta, ma non sarà poi messa in pratica, probabilmente per motivi economici.'",272,270967,191.4665534,192.0000067,'5',1.503304496
'Al suo interno nel 2004 è stato aperto un museo dedicato alla storia dell''Amburgo.',329,324737,197.6986035,198.0000067,'4',2.878377218
"'Alprazolam è ampiamente metabolizzato nell''organismo umano, in particolare grazie al citocromo P450 3A4.'",72,74564,204.8796568,204.8797286,'3',3.046959351
'Il Cando o Rio Cando è un piccolo torrente della Repubblica di San Marino.',279,276352,211.6989516,211.6989895,'2',3.077070009
'Un antica copia del Codex Amiatinus è tutt oggi la Bibbia personale del Papa.',49,52326,218.7677307,218.7677895,'2',1.669192782
"'Dagli anni 1980, lo stadio ha ospitato per sei volte la nazionale calcistica italiana.'",325,328714,224.4962756,224.4963136,'5',0.94633944
'Chiama la signorina Holland e la incarica di far spedire la missiva a Meredith',52,51090,229.479197,229.4792351,'4',2.291615945
'Il dansi si può considerare derivato dalla rumba congolese degli anni 30 e sessanta.',239,234134,235.7179895,235.7180375,'3',1.491220765
'Poi Giuseppe Viani lo fa esordire in Serie A il 20 marzo 1960 in Udinese-Milan.',306,303510,241.2445414,241.2445803,'5',1.019358032
"'Tentò così l''esperienza in Europa, ma non superò un provino sostenuto con il Sunderland.'",307,301080,246.4648849,246.4649279,'5',1.172458616
'Breeland fu scelto dai Washington Redskins nel corso del quarto giro del Draft 2014.',19,22181,251.6172163,252.0000053,'5',0.890496822
"'Nei 50m stile libero invece non riuscirà a raggiungere la finale, nuotando in 2502.'",343,344851,256.8965265,258.0000043,'2',3.185807144
"'Nel corso degli anni fu modificata la struttura dello stadio, ampliando la capacità dello stadio.'",324,325887,265.1977303,265.1977702,'3',3.226415617
'Il Portogallo ricevette ventiquattro Curtiss SB2C-5 insieme con parti di ricambio e accessori nel 1950.',4,5566,272.6528295,272.6528692,'2',3.167843612
'Ricevette il brevetto di sottotenente dell''Esercito degli Stati Uniti il 1o luglio del 1830.',184,189842,279.9985481,279.9985871,'5',0.834481532
'Segue la rosa delle giocatrici convocate per i XVII Giochi i piccoli stati d Europa.',341,337903,284.8616889,284.8617499,'2',1.948592646
"'Il coimperatore, infatti, non volle mai consumare il matrimonio perché riteneva Sofia troppo brutta.'",210,208695,291.0459639,291.0460031,'5',0.792246785
"'Tuttavia, durante la guerra tra Rann e Thanagar, i due inizieranno una relazione sentimentale.'",136,139024,295.8291899,295.8292524,'5',0.792317545
'Dal 2010 non viene più utilizzata ed è stata definitivamente sostituita dal nuovo telaio.',34,39554,300.6527556,300.652794,'5',1.143643297
'I Rutuli sono un gruppo etnico situato in Daghestan e in alcune località dell''Azerbaigian.',130,134823,305.7685895,306.0000066,'5',0.611631926
'La bukovskýite è un minerale che prende il nome dal chimico ceco Antonin Bukovsky.',197,201755,310.5781728,312.000004,'5',1.628010642
'Processione di San Ferdinando D Aragona con le reliquie per le vie di Alvignano',290,291428,317.5958866,318.0000045,'2',1.702518635
'Il 1997 cominciò con le premesse del 1996 ed ebbe le stesse conclusioni deludenti.',264,258896,323.68605,324.0000051,'5',1.955054423
'Follie del cinema è un film del 1932 diretto da Clyde Bruckman. con Harold Lloyd..',144,144631,329.947647,330.0000057,'5',1.181583255
'Il margine prossimale deve essere una zona del colon flessibile e senza ipertrofia o infiammazione.',122,122152,335.399606,336.0000063,'4',1.494072269
"'Non necessita di particolari cure, una spazzolata periodica contribuisce ad eliminare il pelo morto.'",128,128022,341.648127,342.0000053,'5',0.774475533
'Questi è oggi stato canonizzato dalla chiesa ortodossa ed è lodato come eroe nazionale.',111,113701,346.7640402,348.0000044,'1',1.302572468
"'Viardot assegnò per primo l''opera a Raffaello, seguito da Passavant, Morelli e Pulzky.'",23,25579,353.347874,354.0000065,'4',1.02508736
"'Inoltre la calcopirite è rinvenuta in gran quantità, raramente in forma cristallina, e meno fragile.'",199,200003,358.826229,360.0000043,'3',1.79778128
'La principale vittoria da professionista fu un tappa al Giro d Italia nel 1951.',101,106656,365.9963487,366.0000249,'5',1.228106929
'Il primo touchdown stagionale lo segnò nella vittoria della settimana 2 in casa dei Vikings.',16,18780,371.2332378,372.0000064,'5',0.791280219
'I successivi miracoli sono indicati nella lista dei capitoli all Historia Miraculorum della Vita II.',291,290022,376.9953082,378.0000049,'1',1.286250305
"'Dopo 104km di corso il fiume sfocia nel Jijia, vicino alla città di Chipere_ti.'",281,277219,383.4768154,384.0000062,'3',2.924723891
'Nella stagione successiva Hay e i Black Hawks raggiunsero la finale della Stanley Cup.',160,158314,390.8824236,390.8824626,'5',0.68892159
"'Il gioco contiene una versione elettronica de Il volo del calabrone, di Nikolai Rimsky-Korsakov.'",376,374245,395.6286577,396.0000041,'5',1.737515967
'La guerra contro le tribù germaniche degli anni precedenti ne aveva solo ritardato i piani.',178,181388,401.7123643,402.0000055,'5',1.051212103
"'Mentre transitava nel canale Kaiser Wilhelm il 14 marzo 1917, la Kaiserin si arenò.'",296,297610,407.2462025,408.0000045,'2',2.701275212
"'Negli anni 1983-1984 l''esposizione venne riallestita, mutando e migliorando il percorso logico espositivo.'",228,225351,414.728824,414.7288623,'2',1.877738881
'Carollia castanea è un Pipistrello della famiglia dei Fillostomidi diffuso nell''America centrale e meridionale.',320,321421,420.4279832,420.4280209,'5',0.912480498
"'Nei pressi del Mönchjoch, valico che lo separa dal Mönch si trova la Mönchsjochhütte.'",222,220533,425.3448644,426.0000042,'3',1.733245661
'Il nome è in riferimento alla composizione chimica è un minerale con prevalenza di cerio.',198,202426,431.7319252,432.0000045,'4',2.095041725
"'Il corno viene recuperato dai soldati di Gondor, spezzato in due, e portato dal Sovrintendente.'",140,143723,438.2617211,438.2617708,'5',1.606876148
'Questo format era già stato sperimentato nel novembre 2007 ma abbandonato dopo poco tempo.',356,356124,444.0923716,444.0924096,'5',0.547568069
'Il progetto museografico è elaborato personalmente da Depero tra il 1957 e il 1959.',226,225952,448.6124664,450.0000067,'2',2.798248967
"'Con la totale indipendenza norvegese,venne approvata una legislazione rafforzante del sistema introdotto nel 1885.'",190,197358,456.8128643,456.8129025,'3',1.34974229
"'Anche se era ovviamente per attaccare la Kru, Konnan ha rifiutato la fiducia di Kip.'",340,337801,462.1458235,462.1458834,'1',1.07930011
"'Il Paraguay è uno degli stati aderenti alla Banca del Sud, partecipando al suo capitale.'",89,94658,467.4248141,468.0000071,'2',1.397380029
"'La serie è ambientata in Sicilia, ma è stata quasi interamente girata in Puglia.'",353,348235,473.5939301,474.0000067,'5',0.902759341
"'Per l''occasione Fukuyama forma un duo musicale con il coprotagonista di Galileo, Kou Shibasaki.'",233,230429,478.9252863,480.0000046,'5',0.919599853
'Il 20 luglio 2012 Fayne prolungò per altre due stagioni con i New Jersey Devils.',157,160773,485.1113045,486.0000055,'4',1.875946769
"'Sede vescovile è la città di Nyahururu, dove si trova la cattedrale di Maria Immacolata.'",112,118531,492.0609616,492.0610022,'4',1.835601767
'Segue l''elenco degli insigniti dell''ordine di Massimiliano per le scienze e le arti.',108,108700,498.0793214,498.0793677,'3',1.803833102
"'Storicamente, la RDC è stata dominata dalla politica del partito unico dell''uomo forte.'",92,93254,503.6953569,504.0000061,'4',1.373074237
'Nel corso degli anni altre opere sono state accolte e esposte all''interno del museo.',225,225850,509.1294841,510.0000044,'5',0.595665335
'Questo sistema di plug-in è alla base di tutti i moderni software del genere.',309,310422,514.5947203,516.0000059,'3',1.569222619
'Le dimensioni della carreggiata sono poco più ampie di quelle di una normale strada statale.',284,282905,521.5767279,522.0000053,'5',0.919161817
'Questa voce raccoglie le informazioni riguardanti il FC Tokyo nelle competizioni ufficiali della stagione 2008.',334,331027,527.161913,528.000004,'4',2.154649502
"'I traguardi volanti hanno continuato ad assegnare abbuoni di 6, 4 e 2 secondi.'",93,98506,534.3444202,534.3444669,'3',1.351358073
'Nel maggio 1970 Colonna di Paliano divenne presidente della catena di grandi magazzini La Rinascente.',247,249372,539.6426311,540.0000064,'3',2.346309799
"'Il dipinto ha subito una pulitura leggera, in occasione della mostra a Firenze nel 1922.'",24,25757,546.4974162,546.4974638,'4',1.588150302
"'Durante la manifestazione prese parte anche alle finali dei 200,400 e 800m sl.'",345,347017,552.2281369,552.2281763,'5',0.650469452
'Varie librerie sono state costruite sopra OpenGL per fornire funzionalità non disponibili in OpenGL stesso',311,309124,556.676911,558.0000047,'5',1.654450183
"'Le pareti eran ricoperte da immagine votive, tranne il presbiterio che fu affrescato nel 1700.'",273,273085,563.8268507,564.0000052,'4',2.103363122
"'La canzone è stata bandita in molte stazioni radio, tranne in quella del Dr. Demento.'",13,17025,570.2447884,570.244828,'3',2.122826812
'Nel luglio del 2006 l''intera azienda fu acquistata dal gruppo Perfetti Van Melle.',82,89591,576.5939961,576.5940345,'1',1.794262062
'L Ostniederdeutsch è un gruppo di dialetti parlati prevalentemente in Germania orientale e Polonia settentrionale.',168,168701,582.2259186,582.2259665,'3',1.512583714
'Fu la prima volta che l''istituto del Palazzo Davanti arrivò a tanto potere.',208,205145,588.0107132,588.010797,'5',1.275253772
"'Terminò la carriera universitaria con 1.344 punti, 804 rimbalzi e con il 51,5% al tiro.'",44,42957,593.0418504,594.0000052,'3',2.916585398
'In questo programma la conduttrice per lanciare il riepilogo dei progetti usa dire Ricap!.',360,358910,601.106187,601.1062253,'5',1.247314226
"'La prima regolamentazione organica dell''onorificenza è stata approvata col Decret 22 giugno 2004, n.'",107,112884,606.3120904,606.3121291,'3',3.222151815
'La vetta del Nelion fu scalata la prima volta da Eric Shipton nel 1929.',220,216714,613.5434533,613.5435112,'5',0.540536624
"'In carriera ha vinto un titolo nel singolare, il WTA Swiss Open nel 1976.'",365,363383,618.0602159,618.060254,'2',1.330502605
"'Elton si cimenta a raggiungere note abbastanza alte, in special modo durante il ritornello.'",316,312983,623.3757238,624.0000039,'5',0.948464183
"'HD 30197 è una stella gigante arancione di magnitudine +5,99 situata nella costellazione del Toro.'",68,66347,628.92341,630.0000039,'4',2.366044911
'Fu ordinato vescovo a Roma l''8 giugno 1549 dal cardinale Juan Álvarez de Toledo.',63,60637,636.5416336,636.5416722,'5',0.645269325
'Per quanto riguarda l''origine della viremia esiste la suddivisione fra forma attiva e passiva',118,121123,641.1482305,642.0000053,'3',2.833533287
'Questo è tuttavia l''unico capitolo in cui Lara non guida veicoli di alcun tipo.',375,374926,648.8758354,648.8758778,'5',1.277334799
'La nave fu infine smantellata nei cantieri Breda di Venezia nel 1923 o 1924.',299,297409,654.144299,654.1443381,'5',1.235359814
'Il cão de água português è una razza di cane d acqua di origine portoghese.',124,130126,659.4264833,660.0000063,'5',1.585208779
'Queste caratteristiche lo qualificarono più come un cacciabombardiere che non come un bombardiere medio.',2,4317,665.7298789,666.0000067,'5',0.860159052
"'Sede vescovile è la città di Oslo, dove si trova la cattedrale di Sant Olav.'",115,114247,670.8478389,672.0000038,'5',0.777284296
"'Nel 1934, prese parte alla notte dei lunghi coltelli contro le Sturmabteilung di Ernst Röhm.'",187,186697,676.9628347,678.000006,'4',1.072701999
"'Peraza si esibì in tutti i locali delle zone circostanti, tra cui nel Manhole Shelley.'",230,231994,683.2280961,684.0000065,'5',1.517542654
'I Big Daddy sono i grossi protettori rinchiusi in scafandri corazzati che vigilano sulle Sorelline.',373,373915,689.6802773,690.0000043,'5',1.713430131
'Nonostante la sconfitta toccò il suo best ranking della carriera salendo fino alla seconda posizione.',362,365950,695.907914,696.0000051,'4',1.879183523
"'In realtà la vetta più alta è il monte Popomanaseu, che tocca quota 2335 metri.'",223,218296,702.0582395,702.0582868,'5',0.91895192
"'Il rimanente tratto, da Rezzato a Limone sul Garda, è invece rimasto all''ANAS.'",286,283488,707.3077022,708.000004,'4',1.946397674
"'Discussione di alcuni principali processi fonologici, come di importanti allofoni o di regole di assimilazione.'",171,170821,713.7279054,714.0000051,'2',1.903916719
'Aldobrandino d Este dopo la morte del padre ereditò il titolo di signore di Ferrara.',206,208696,720.1379169,720.1379566,'2',1.634422723
"'Fu vinta dall''italiano Daniele Contrini, al traguardo con il tempo di 4h19m41s.'",95,100002,725.9468926,726.0000052,'3',1.18788089
'Il motore era di cilindrata piuttosto bassa per essere un 8 cilindri solo 1719cm3.',36,39716,730.74042,732.0000065,'3',2.319011369
"'Nel gennaio 2013 passa alla Pallavolo Motta di Motta di Livenza, sempre in Serie B1.'",381,382181,738.2942844,738.2943565,'2',1.091135947
"'Era il figlio di Henry Brand, I visconte Hampden, e di sua moglie, Eliza Ellice.'",251,250187,743.6112611,744.0000066,'4',1.103264128
'L''università è governata da un consiglio di facoltà e da un consiglio d amministrazione.',371,370838,749.292643,750.0000065,'5',1.690134782
'La serpe di Zanzibar è un film muto del 1928 diretto da Tod Browning.',143,146607,755.6590394,756.0000053,'5',0.536167523
"'Nel 1945 l''aeroporto fu preso dagli Americani, che lo restituirono alla città nel 1949.'",10,6748,760.5120188,762.0000065,'5',1.370674292
'Fu scelto nell''Amateur Draft del 1963 dai Toronto Maple Leafs in ventunesima posizione.',156,159039,767.3585033,768.000006,'4',1.087834978
'Nel 2016 è nello stesso team con un nuovo compagno di squadra Franco Morbidelli.',214,215833,772.8472256,774.0000052,'3',1.085159268
'MTRG fa uso del protocollo SNMP per inviare due identificatori di oggetto a un dispositivo.',310,307370,779.0574034,780.0000056,'2',1.902854463
'Con Viacheslav Fetisov abbatté la barriera che bloccava i giocatori sovietici dal giocare nella NHL.',159,157738,786.0940644,786.0941344,'3',4.159413086
'La strada ha origine dallo svincolo di Castellammare del Golfo sull''A29 Palermo-Mazara del Vallo.',289,287529,794.4441972,794.4442354,'3',2.167299527
'Nel giugno del 2015 arriva secondo nell''Europeo per nazioni svoltosi a _eboksary in Russia.',27,35224,800.5386534,800.5387001,'5',0.849861212
'L''8 aprile 2009 DeRozan annuncia che entrerà a far parte del Draft NBA.',43,45817,805.4229161,805.4229543,'5',1.454431697
"'Pohl scrisse egli stesso molte storie, per riempire la rivista e aumentare il suo stipendio.'",241,245685,810.6890798,810.6891193,'4',1.644762234
'La malattia di Crohn aumenta anche il rischio di cancro nella zona di infiammazione.',120,125570,816.4916947,816.4917331,'5',0.911936805
'La carriera di _pek Soro_lu inizia nel 2002 tra le file del Galatasaray Spor Kulübü.',384,379910,821.4067427,822.0000046,'5',0.854180747
'MariaDB si compila sia su processori a 32 bit sia su processori a 64.',308,309335,827.0243898,828.0000064,'4',1.060080364
'Posteriormente terminava in una coda dall''impennaggio tradizionale monoderiva dagli ampi piani di coda.',3,975,833.0549365,834.0000041,'1',1.303672911
'Nel 1693 ricevette il suddiaconato e solo il 5 giugno 1700 prese gli ordini sacri.',80,80876,839.137336,840.0000058,'3',1.193183431
"'Il giardino, oggi ridotto e molto modificato rispetto al passato, fu progettato da Enrico Combi.'",58,54949,845.3437121,846.0000049,'5',0.771675632
"'Se dovessero sorgere problemi, VirtualBox ha un ricompilatore dinamico, come gli altri software di virtualizzazione.'",312,308313,850.9239904,852.0000068,'3',3.084057232
"'Nel 2012 ritorna in Spagna alla Movistar, che aveva lasciato al termine del 2008.'",99,107981,859.2562378,859.2562772,'5',0.774232502
"'Alla fine dell''anno avviene la defezione di Prezzolini, che si trasferisce a Roma.'",243,240966,864.0405025,864.0405407,'4',1.076119946
"'La stazione risulta essere molto trafficata, vista la sua popolarità tra i pendolari della zona.'",267,264335,868.8927525,870.0000051,'5',0.707153314
'Dal 15 dicembre 2013 la stazione è fornita da un sottopassaggio munito di ascensori.',268,267289,874.8419145,876.0000055,'5',1.455386258
"'Anche nell''inverno 2008-2009 partecipa alla GP2 Asia, vincendola, e nel 2009 al campionato GP2.'",261,259774,881.4389887,882.0000068,'4',1.013104811
'La società viene fondata nel 1967 da Reinhold e Robert Spieldiener e da Ali Saiko.',85,87586,887.0068215,888.0000054,'4',3.65086344
"'Phi1 Orionis è una stella gigante azzurra di magnitudine 4,4 situata nella costellazione di Orione.'",69,70680,895.8378034,895.8378425,'4',1.62763311
"'Figlia unica, ha cominciato a praticare atletica leggera all''età di 12 anni nel 2003.'",31,31262,901.6112422,901.6112802,'4',1.252740663
'Il museo si trova in quella che un tempo era la centrale termoelettrica di Bankside.',224,223085,906.810021,906.8100599,'3',1.648433536
'In Danimarca l''incidenza è più elevata e raggiunge i 41 casi per 100.000 persone.',119,123522,912.6541564,912.654195,'5',0.713244556
'Il film - un cortometraggio a una bobina - fu prodotto dalla Société des Etablissements L.',148,148253,917.3037518,918.0000044,'2',1.167915479
'Il motore di Nessus 2 e una piccola quantità di plugin sono ancora GPL.',313,311874,923.5422942,924.0000066,'2',2.248792448
"'Lo Shield ha quindi cominciato ad attaccare Kane, salvo ritirarsi quando gli Usos sono intervenuti.'",337,339288,930.2043987,930.2044372,'3',2.737610022
"'Con una magnitudine apparente di +3,84 è la dodicesima stella più brillante della costellazione.'",65,68783,937.1783918,937.1784305,'4',0.989786159
'Appena scelto fu scambiato dai Nuggets insieme a Rodney Rogers per arrivare a Antonio McDyess.',39,43065,942.1037611,942.1037998,'4',1.954044798
"'Lo stesso Doni aveva commissionato a Michelangelo il famoso Tondo Doni, oggi agli Uffizi.'",22,29269,948.2230404,948.2230788,'3',1.784992881
'Costruisce poi una nuova spada laser blu come simbolo della sua promozione al Consiglio Jedi.',141,143955,953.989987,954.00001,'5',1.038692352
'La concentrazione plasmatica massima viene raggiunta in genere entro 2-4 ore dall''assunzione della molecola.',75,74697,959.2185385,960.0000052,'4',1.437827942
'Lo scopo dell XB-19 era quello di testare le caratteristiche di volo di bombardieri giganti.',6,4945,965.3716137,966.0000055,'5',1.953418786
"'La sua prima stagione nel Maryland si chiuse con 31 tackle e 9,5 sack.'",15,22930,972.108228,972.1082913,'4',1.346329626
"'Il 1968 fu, invece, un anno tormentato sia per il pilota, che per la scuderia.'",265,259710,977.4379688,978.0000046,'5',0.953831934
'Suo figlio Tim è stato anche un pilota di Formula 1 con scarsa fortuna.',263,258469,983.0723068,984.0000064,'5',1.22816468
'Si arruolò come soldato nel 44° Reggimento di linea allo scoppio della guerra franco-prussiana.',185,188343,989.2080677,990.0000045,'5',0.545145908
'Il confronto con l''urea ricavata dall''urina lo convinse di aver sintetizzato quel composto.',71,73125,994.5279432,996.0000047,'3',1.342171257
"'Il bacio è un dipinto a olio su tela, alto 99 e largo 81 centimetri.'",25,25965,1001.123515,1002.000006,'5',0.382489184
'Nel 1985 la sinagoga fu chiusa e cominciarono lunghi anni di abbandono e furti.',274,272889,1006.588238,1008.000006,'4',0.963438815
"'Da allora la stazione è il capolinea dell''attuale Linea Kachovskaya, staccatasi dalla Zamoskvoreckaja.'",176,178047,1012.854207,1014.000004,'3',1.214691078
'By the Sad Sea Waves è un cortometraggio muto del 1917 diretto da Alfred J.',145,146536,1018.937361,1020.000004,'4',1.486367717
'Questa voce raccoglie le informazioni riguardanti la Pallavolo Chieri nelle competizioni ufficiali della stagione 2003-2004.',332,332398,1025.670466,1026.000004,'5',0.735772171
'Questo procurò alla band un tour in Europa insieme ai Gothminister come band di supporto.',231,231272,1030.955702,1032.000006,'3',1.999439147
"'Il 1969 vede il centauro ternano Campione Italiano Juniores della 250, sempre con una MotoBi.'",216,215464,1038.168351,1038.168408,'3',2.140604327
"'I tedeschi, riconoscendo l''indifendibilità della propria posizione, si ritirarono dalla Marna verso nord.'",182,181908,1044.521604,1044.521642,'4',0.679445538
'Anche a Los Angeles raggiunge la semifinale in cui viene sconfitto da Stefan Edberg.',364,360192,1048.971258,1050.000006,'5',1.753913465
'L''elenco che segue concerne invece le puntate realizzate durante la gestione di Giovanni Minoli.',358,354206,1055.723988,1056.000006,'4',0.788528711
"'Realizzato nel 2002, Crusader riscosse subito un grande plauso fra i fan del precedente capitolo.'",378,373856,1060.753549,1062.000004,'5',1.38162344
'In Italia è stata trasmessa dal 1981 su reti locali con il titolo Koseidon.',349,349483,1067.570047,1068.000005,'5',0.946551986
'Sopra l''altare è posta una copia della Vergine nera di Cz_stochowa risalente al 1720.',271,273798,1072.907489,1074.000007,'5',0.588665764
'Sul retro la medaglia presenta un gladio romano attorniato da una corona d alloro.',110,112553,1078.617382,1080.000007,'4',2.473671764
'È per questo motivo che questo clan ancora oggi in Burundi ha una pessima considerazione.',207,209239,1086.467909,1086.467954,'4',2.019622448
'Nel 1934 il telaio venne modificato per avere una carreggiata e un avantreno più larghi.',35,41627,1092.686672,1092.686716,'5',1.834641329
'A partire dal 1944 la nave fu utilizzata nel Pacifico per scortare le portaerei.',298,296963,1098.702459,1098.702512,'5',3.483154954
'Il cane da orso della Carelia è un cane da caccia della famiglia degli spitz.',125,130678,1106.153198,1106.153236,'3',1.50673261
'L''aeroporto è stato inaugurato nel 1940 con un volo con destinazione la capitale.',9,9857,1111.837712,1111.83776,'1',2.109737251
"'Con questa squadra, trasformò le pagine di Vogue in un grande spettacolo artistico e sofisticato.'",246,243446,1117.72211,1117.722173,'3',1.918967242
'Joey è un ragazzo comune che frequenta le scuole superiori nella cittadina di Greenville.',46,51680,1123.819185,1123.81923,'5',1.239233117
'La Frenchcore è un sottogenere musicale molto veloce e ritmato proposto soprattutto in Francia.',237,238794,1129.049708,1129.049746,'4',1.418337177
"'Era comune praticare la poligamia e durante i primi anni di matrimonio, la residenza uxorilocale.'",133,134137,1134.483919,1134.483977,'2',2.535516494
'Originatori di questa tendenza sono stati probabilmente gli statunitensi Impetigo insieme ai conterranei Meat Shits.',238,237999,1141.203452,1141.203491,'2',1.472737914
'Con My Chico al Festivalbar 1988 venne premiata come Migliore Cantante Europea dell''anno.',229,228218,1146.870603,1146.870652,'4',0.773376708
'Il 6 dicembre 2017 ha preso possesso del titolo cardinalizio di Santa Maria degli Angeli.',78,82891,1151.408638,1152.000004,'4',0.847504203
'Globalmente la stazione possiede due ingressi a cui si aggiungono tre accessi diretti ai binari.',270,264270,1157.017093,1158.000005,'4',2.077470154
'Oggi la villa ospita il Comando Militare Esercito Friuli Venezia Giulia con adiacente Circolo Ufficiali.',56,55580,1164.220791,1164.220839,'2',2.2422114
'L''ordine dispone dell''unica classe di membro che dà diritto al post nominale DUK.',105,108115,1170.619658,1170.619695,'3',0.952858479
'Il 23 agosto 1179 Saladino giunse al Guado di Giacobbe e diede inizio all''assedio.',179,184453,1175.371171,1176.000004,'4',1.577119347
'Infatti l''edizione originale di D&D raccomandava al lettore il possesso di una copia Chainmail.',149,151201,1181.553383,1182.000004,'3',1.438374561
"'Gesti e sguardi si intrecciano tra i protagonisti, con un notevole senso di familiare naturalezza.'",26,26185,1187.41998,1188.000006,'4',1.763212226
'Originariamente la canzone è stata scritta per l''album d esordio The Scream del 1978.',14,15071,1193.937061,1194.000007,'5',0.61349852
'Appartiene al circondario di Bad Kreuznach ed è parte della comunità amministrativa di Kirn-Land.',260,256087,1198.581971,1200.000006,'4',1.265943957
'Il Comitato Olimpico Capoverdiano venne creato nel 1989 e riconosciuto dal CIO nel 1993.',338,338008,1205.219749,1206.000006,'4',2.417079907
'Nel 1998 Delta Green vinse l''Origins Award per il Best Roleplaying Supplement of 1997.',152,151360,1212.336248,1212.336287,'4',1.874602853
'Negli anni novanta la rivista continuò ad essere un punto di riferimento del settore.',245,241225,1218.167741,1218.167784,'5',0.432650933
"'I primi due film TV sono stati trasmessi dalla NBC, il terzo dalla CBS.'",354,348182,1222.568827,1224.000007,'5',1.096884798
'Nei giorni seguenti Rosberg si scusò pubblicamente con Hamilton prendendosi la responsabilità per la collisione.',266,263629,1229.017082,1230.000004,'5',0.493333943
"'Se il suo pendant, l''Aurora è nell''atto di svegliarsi, il Crepuscolo dovrebbe coricarsi.'",21,25271,1234.667355,1236.000005,'1',1.233296984
"'GO Andromedae è una stella variabile di magnitudine 6,12 situata nella costellazione di Andromeda.'",70,70585,1241.000839,1242.000005,'2',0.423395579
'Con decreto del 12 novembre 1976 al battaglione fu assegnata la Bandiera di Guerra.',191,197578,1246.501929,1248.000005,'4',1.151331546
'Il XIV SS-Armeekorps fu un unità militare formata nel novembre del 1944 nell''Oberrhein.',193,197558,1253.18445,1254.000004,'2',0.799560991
'Il romanzo si svolge nell''arco degli ultimi sette giorni di gravidanza di Sara.',47,48769,1258.634118,1260.000006,'4',0.992206456
'Il territorio della diocesi si estende su 43.110km2 ed è suddiviso in 4 parrocchie.',114,117247,1264.806636,1266.000004,'5',0.603513893
"'In questo settore, come del resto in tanti altri, le privatizzazioni sono state limitate.'",87,91446,1270.634553,1272.000004,'5',1.237070794
'Aida è un cortometraggio muto del 1911 diretto da Oscar Apfel''e da J.',146,145516,1277.183757,1278.000005,'4',1.011250166
'Dopo pochi giorni rifiutò la promozione al cardinalato preferendo rimanere solo vescovo di Tropea.',61,65305,1282.769442,1284.000004,'4',1.147254605
"'La X300, inoltre, fu il primo modello XJ ad adottare i paraurti completamente in plastica.'",37,41916,1289.087288,1290.000006,'4',2.42509094
'Astrolove è un programma televisivo che fa parte del palinsesto di Real Time dal 2013.',359,354929,1296.535345,1296.535383,'5',0.743464002
"'Gareggiò poi nel Motomondiale, in varie classi fino al termine della stagione vittoriosa del 1955.'",215,213386,1301.46955,1302.000004,'5',0.931804314
"'C., riuscì ad impadronirsi di Argo, che si era ribellata all''arrivo delle truppe macedoni.'",254,246219,1307.100936,1308.000006,'4',2.075125111
"'In mancanza di eredi, gli successe come era facile prevedere, il fratello minore Leopoldo.'",202,208448,1313.999852,1314.00001,'5',0.758395387
'Il fiume ha una portata d acqua tra i 2 ed i 1500 m3/s.',283,279151,1318.729997,1320.000007,'5',1.44731661
'Nel 2014 lo stadio è stato ampliato in modo da contenere fino a spettatori.',326,325253,1325.466639,1326.000005,'1',1.57572326
'Nella settimana 8 fece registrare il primo intercetto stagionale nella vittoria sugli Atlanta Falcons.',17,21619,1331.5992,1332.000005,'3',1.068072901
"'Nel 2006, ad Atene, ha preso parte ai 3000m piani della Coppa del Mondo.'",32,33300,1337.000881,1338.000005,'3',1.429471349
'Specializzato nella farfalla ha partecipato alle Olimpiadi di Atlanta 1996 e di Sydney 2004.',346,347444,1343.367615,1344.000006,'4',1.180337638
'Il giovane re divenne succube del Phraya Kalahom e fu assassinato nell''agosto del 1629.',203,209601,1349.098211,1350.000006,'3',1.193033526
"'È possibile che condividesse l''habitat con altri grossi artropodi nuotatori, come Isoxys e Zhenghecaris.'",322,322798,1355.167223,1356.000006,'3',2.445290688
"'Il 24 marzo un convoglio entra nel campo, con la perdita dei cacciatorpediniere e.'",295,296646,1362.388603,1362.388643,'1',1.765617337
"'La diocesi comprende la città di Sebenico, dove si trova la cattedrale di San Giacomo.'",116,118574,1368.148666,1368.148719,'3',2.584731425
'L''etichetta è stata chiusa nel mese di febbraio del 2009 per problemi finanziari.',86,89720,1374.917433,1374.917471,'4',1.237381936
"'Professionista tra il 1926 ed il 1930, conta la vittoria di una Tre Valli Varesine.'",102,106903,1379.91762,1380.000006,'1',2.232524223
'Nell''ultimo numero c''è un Referendum sullo stato di salute della rivista stessa.',242,241542,1386.420173,1386.420216,'2',2.509225488
"'57 Ceti è una stella gigante rossa di magnitudine 5,46 situata nella costellazione della Balena.'",66,69371,1392.5172,1392.517247,'3',1.712422489
"'Si formò presso l''università di Padova, di cui in seguito fu anche Riformatore.'",62,60280,1398.384564,1398.384603,'3',2.928296534
"'Giovanni occupava il tempio ed i dintorni, compreso l''Ophel''e la valle del Cedron.'",180,180344,1405.051725,1405.051764,'1',1.977415333
'Notevole è l''apparato decorativo delle sei cappelle che si aprono sulla sinistra della chiesa.',275,273278,1410.798869,1410.798908,'5',2.619514354
"'In virtù di questo fatto, la canzone viene chiamata abitualmente Sappy per evitare confusione.'",314,313573,1417.365233,1417.365272,'4',1.020302321
"'Giocò con il Castilla, la squadra filiale del Real Madrid, dal 1974 al 1980.'",304,301955,1422.334903,1422.334942,'4',2.539225819
"'Presero il via da Compiègne 186 ciclisti, 92 di essi portarono a termine la gara.'",94,97941,1428.885606,1428.885652,'4',0.754178363
'Tale configurazione telaistica ha permesso l''ottenimento di un peso inferiore ai 950 kg.',33,40074,1433.763069,1434.000006,'3',1.289518052
'Nel luglio 2006 ha reso pubblico il suo fidanzamento con la cantante australiana Candice Alley.',342,343025,1439.044214,1440.000004,'5',1.79162756
"'Oltre all''inglese e al filippino, conosce anche l''italiano, lo spagnolo e il francese.'",59,60115,1445.95315,1446.000007,'5',0.796222501
"'Kysor, era in origine un hotel''e si trova al 430 di North Main Street.'",57,57855,1450.595641,1452.000005,'4',1.23251134
"'Secondo lo United States Census Bureau, ha un area totale di 1,00 miglia quadrate.'",257,256044,1457.145364,1458.000005,'3',1.155354726
"'Sull''altro versante, da Vienna si insisteva con Gyulai per una condotta più energica.'",177,182025,1463.111832,1464.000006,'2',1.398030148
"'Esse si ritirarono subito dopo, lo Yugiri trainando lo Shirakumo rimasto senza energia motrice.'",297,299168,1469.167377,1470.000007,'1',1.881261419
"'Nella stagione 2006-07 torna in Germania, con il Dürener Turnverein 1847, debuttando in 1.'",379,381238,1475.882309,1476.000004,'1',2.40148776
"'Sede vescovile è la città di Litom__ice, dove si trova la cattedrale di Santo Stefano.'",113,117120,1482.400845,1482.400883,'5',0.825264908
'A causa della gravissima ferita fu posto in congedo assoluto il 15 gennaio 1918',186,190101,1487.464859,1488.000006,'5',0.904943888
"'Csáfordjánosfa è un comune di 244 abitanti situato nella provincia di Gy_r-Moson-Sopron, nell''Ungheria nordoccidentale.'",258,255497,1492.919928,1494.000005,'3',1.803102889
'Nel periodo 1874-1961 è stata l''unica università del paese ad attribuire titoli accademici.',372,366937,1499.782426,1500.000005,'5',1.029920477
'La Tyrrell fa nuovamente doppietta nel Gran Premio di Germania al Nürburgring il 1o agosto.',262,258585,1504.745932,1506.000006,'4',1.623510157
"'Al passo molti springer ambiano il che non è difetto, ma tipico della razza.'",127,130302,1511.798429,1512.000006,'3',1.222732939
'L''espandersi del fenomeno costrinse alla mobilitazione sia le autorità francesi che quelle siamesi.',134,136760,1517.231411,1518.000006,'5',1.452637552
"'Questi nuovi complessi incorporavano gli elementi più commerciali di alternative rock, emo e post-hardcore.'",236,237894,1523.200021,1524.000005,'4',1.46626443
'Diresse la piantagione con un pugno di ferro che portò al suo omicidio nel 1904.',166,165037,1529.447858,1530.000007,'3',1.599419731
"'La città più grande è Kaunakakai, che è anche uno dei due porti sull''isola.'",163,166881,1535.797712,1536.000007,'5',1.484890298
"'Vento scomposto è il quarto romanzo di Simonetta Agnello Hornby, pubblicato in Italia nel 2009.'",48,51850,1541.482997,1542.000004,'4',1.996665618
'Sotto la vetta sono evidenti i resti del presidio austriaco della prima guerra mondiale.',219,217896,1548.165974,1548.166012,'3',1.330659526
"'Il 28 agosto, la brigata venne trasferita in Estonia, nella zona del lago Peipus.'",189,192890,1553.445536,1554.000005,'5',0.489739371
'È un cane di piccola taglia caratterizzato da un lungo pelo liscio e pesante.',129,131874,1558.494052,1560.000005,'5',1.351079059
"'Passò professionista all''inizio del 2010, quando venne messo sotto contratto dalla Liquigas-Doimo, squadra ProTour.'",103,104720,1565.348893,1566.000006,'3',1.206383273
"'La pupa dectica è sempre definita anche exarata, ossia possiede appendici libere e distaccabili.'",323,321016,1571.135028,1572.000004,'1',2.70565502
"'Le reliquie di San Claudio vennero arse nel marzo 1794, durante la Rivoluzione Francese.'",293,291374,1578.714464,1578.714565,'5',0.732432131
'La produzione della miniera oscillava tra le 56 e le 84 tonnellate di rame.',227,224691,1583.44582,1584.000005,'5',1.521954062
"'Il campanile è una torre pendente è infatti inclinato di circa 1,4° in direzione Est-Sud-Est.'",276,270196,1589.510231,1590.000004,'4',1.064765124
"'Sede vescovile è la città di Ica, dove si trova la cattedrale di San Gerolamo.'",117,119373,1595.213065,1596.000006,'5',0.604371714
'Nel periodo estivo l''aeroporto gestisce più di 60 voli di linea al giorno.',8,6518,1600.795181,1602.000005,'5',0.877713845
"'Il distretto di Yaurisque è uno dei nove distretti della provincia di Paruro, in Perù.'",256,257938,1606.680524,1608.000004,'4',0.84769045
'La Granja è una stazione della metropolitana di Valencia che serve la linea 4.',175,174722,1613.030263,1614.000005,'3',1.79936762
'Sarebbe il terzo campo dopo l''Estadio La Cabañera e lo Stadio San Jorge.',330,328110,1619.763606,1620.000005,'4',2.683872083
'Questa voce raccoglie le informazioni riguardanti il Sorrento nelle competizioni ufficiali della stagione 1980-1981.',335,334526,1626.464012,1626.464051,'5',0.543867527
"'Morì di leucemia nella capitale egiziana nell''autunno del 1988, all''età di 67 anni.'",209,205505,1631.04746,1632.000005,'5',0.909996636
"'Dopo la morte di Vittorio, sposò io 15 febbraio 1813 il barone Federico di Stein-Liebenstein-Barchfeld'",205,205859,1636.729784,1638.000006,'2',2.664175193
'Nel 2000 prese parte ai Giochi olimpici di Sydney ottenendo il quattordicesimo posto nell''eptathlon.',30,34567,1644.832021,1644.83206,'3',1.527682387
"'La famiglia ricorda i ragni appartenenti a quella, tuttora esistente, dei Leptonetidae e degli Ochyroceratidae.'",318,319314,1650.347018,1650.347075,'2',1.178901522
'È un sistema biciclico costituito da un anello ciclopentano fuso ad un anello ciclopropano.',73,74179,1655.714526,1656.000007,'1',1.245300173
'Bomberman è l''unico che può fronteggiare Wario e riportare l''equilibrio nel suo mondo.',377,375245,1661.19877,1662.000004,'4',2.459124992
"'È ricordato come uno dei padri fondatori della specialità, avendo anche vinto cinque titoli francesi.'",213,214815,1668.231123,1668.231161,'4',1.664672144
"'È ottavo nel 1998 e ancora nono l''anno successivo, con una Yamaha YZF-R6.'",211,211665,1674.026009,1674.026047,'4',2.333979256
'Dal 2 maggio 2016 lo spazio dedicato al TG5 non va più in onda.',357,354161,1680.158508,1680.158546,'3',1.767438704
"'La stazione è stata inaugurata in concomitanza con la ferrovia, il 10 agosto 1924.'",269,269233,1685.929497,1686.000007,'5',1.422535929
'Persino Ryuken lo ritiene dotato di grande talento pari a quello di Toki e Raoul.',137,140755,1691.443607,1692.000005,'3',1.669376009
'In agosto la Volkspolizei fu posta sotto il comando del ministro dell''interno tedesco.',194,195644,1697.864696,1698.000005,'4',1.026524995
'Il 10 settembre 2016 a Boscomantico si sono festeggiati i 100 anni dell''aeroporto.',11,6195,1702.795054,1704.000006,'4',0.951474121
"'È una sitcom a sfondo drammatico incentrata sulle vicende dei Drombusch, una famiglia di Darmstadt.'",350,350281,1708.710559,1710.000006,'3',1.790762052
"'È sepolto nell''atrio della Basilica di Santa Maria in Trastevere, suo titolo cardinalizio.'",60,62794,1715.946753,1716.000004,'2',2.029288593
"'Ha raggiunto la 27a posizione della classifica mondiale nel settembre 2016, suo attuale best ranking.'",366,360660,1721.795358,1722.000005,'5',1.33541041
"'Il vecchio alfabeto georgiano sembra sia stato derivato da quello aramaico, con influenze greche.'",173,169410,1727.528032,1728.000004,'4',0.810404411
'Dal 1998 la Libera università di lingue e comunicazione IULM porta il nome attuale.',367,370083,1732.762363,1734.000006,'3',4.209566861
"'Dopo questo viaggio avventuroso di ventotto giorni, Airoldi, tuttavia, non poté partecipare alla maratona.'",28,35875,1742.179588,1742.179633,'4',1.879859352
"'Il mandato terminò tuttavia pochi mesi dopo, a causa della vittoria elettorale della CDU.'",255,247031,1748.011924,1748.011963,'4',2.445543994
'La prima descrizione nota di ipopituitarismo è stata fatta dal medico patologo tedesco Morris Simmonds.',121,120550,1754.461294,1754.461332,'5',0.782559198
"'L''incontro con Jimmy Darmody durante una visita ai veterani, gli cambia la vita.'",139,138428,1759.444679,1759.444718,'4',2.064733352
'Abelli è stato capogruppo di Forza Italia nel consiglio regionale della Lombardia dal 2005.',252,247212,1765.326377,1765.326416,'5',1.022354559
'Il Västgötaspets è un cane di piccole dimensioni ma con un carattere molto forte.',126,130479,1770.275729,1770.27578,'4',1.516959222
'L’8 gennaio 2018 inizia la settima edizione sempre con la conduzione di Paolo Bonolis.',355,355430,1775.749987,1776.000005,'5',0.529407825
"'Farrell, oltre ad essere un evidente omaggio a Uomini e topi di John Steinbeck.'",45,49504,1780.526624,1782.000006,'1',2.787390283
"'Come lato B, il brano è arrivato alla 53a posizione di Billboard Hot 100.'",315,316656,1788.828184,1788.828223,'2',2.944366681
'A soli 16 anni debutta in Serie A1 nel San Lazzaro Pallavolo nella stagione 1985-86.',383,378432,1795.760868,1795.760908,'3',1.381913538
"'Distribuito dalla V-L-S-E, il film uscì nelle sale cinematografiche USA il 1o novembre 1915.'",147,146038,1801.357583,1801.357622,'4',2.001341086
"'Attualmente, i Membri dell''ICRANet sono quattro stati e tre università e centri di ricerca.'",370,371792,1807.326357,1807.326396,'3',1.510760026
'Sempre tra i dilettanti fece suo il titolo iridato della cronosquadre nel 1974 a Montréal.',100,104063,1812.795343,1812.79539,'4',0.799138836
'Bathgate ritornò in NHL per un ultima stagione ancora con i Penguins nel 1971.',155,156613,1817.759623,1818.000004,'5',0.557465778
'Nel 2003 si presenta al Campionato Italiano Velocità Superstock 1000 come campione in carica.',212,214802,1822.525724,1824.000006,'4',0.740365758
'Lo stadio ospita anche gli incontri della Nazionale di rugby a 15 della Svizzera.',327,328158,1828.748236,1830.000006,'3',4.637708064
"'Superato lo svincolo di Cosenza, l''autostrada attraversa le varie montagne in direzione Altilia.'",287,282532,1838.577986,1838.578024,'4',0.920379041
"'Lo Estadio Ruta de la Plata è uno Stadio situato a Zamora, in Spagna.'",328,324650,1843.312152,1843.312191,'4',2.194214182
'Alle Olimpiadi di Atene nel 2004 è arrivato settimo nella finale dei 200m farfalla.',347,342144,1849.465205,1849.465244,'4',2.276623971
"'Conclusa la carriera di calciatore, ha intrapreso quella di allenatore nelle categorie dilettantistiche lombarde.'",301,304880,1855.709891,1855.70993,'5',0.838531998
'Il suo primo gol''in NHL''arrivò il 12 novembre 2005 contro i Dallas Stars.',158,159661,1860.525882,1860.525929,'3',2.233671501
'A pochikm dal traguardo si forma un gruppo di una quindicina di corridori.',96,101156,1866.54633,1866.546371,'1',2.288880472
"'In particolare, il Darwinopterus robustidens sembra essere stato uno specialista nel cibarsi di coleotteri.'",319,323775,1872.660724,1872.660763,'3',2.678974906
"'Questo difettò portò ad odiare il clone di Peter privo di difetti, Ben Reilly.'",138,142153,1879.326565,1879.326605,'2',1.293043169
'Nel seguente elenco sono riportati gli altri eventi più significativi riguardanti il Cho Oyu.',218,218537,1884.659903,1884.659942,'3',1.103585906
'Ha gareggiato nel 100 metri dorso maschile e a pallanuoto alle Olimpiadi estive 1948.',348,345166,1889.759463,1890.000005,'3',3.447577943
"'Dopo aver raggiunto Malta l''11 settembre, la nave venne internata ad Alessandria d Egitto.'",300,297634,1897.410753,1897.410792,'3',1.944919709
"'HD 197540 è una stella gigante gialla di magnitudine 6,5 situata nella costellazione del Capricorno.'",67,71958,1903.349055,1903.349094,'4',1.527124995
"'Nel 1991 fu aperto ufficialmente l''aeroporto Giuseppe Verdi, realizzato tramite una società, la SO.GE.A.P.'",12,9555,1909.060835,1909.060875,'3',1.352207099
'L Ordine dei santi patroni d Italia fu un ordine cavalleresco della Repubblica sociale italiana.',109,112714,1914.375703,1914.375745,'5',1.84490486
"'Il 14 aprile 1577 fu eletto vescovo di Fermo, nonostante non fosse ancora stato ordinato.'",64,62888,1920.439027,1920.439067,'2',4.621189113
"'L''anno dopo fu al servizio della Spagna, per cui combatté in diverse battaglie.'",249,248405,1929.244907,1929.244946,'4',1.330684858
"'La ferrorhodsite è un minerale appartenente al gruppo della linnaeite, ha struttura analoga alla cuprorhodsite.'",196,198878,1934.36007,1934.360109,'3',0.713260546
'Queste tornano poi udibili a partire dal minuto 437 fino alla chiusura del brano.',317,313679,1939.259672,1939.259711,'5',0.660037726
"'In questo caso si verificheranno contrapposizioni violente fra Stati, religioni, entità terroristiche e pirati privati.'",53,53645,1943.948626,1944.000007,'2',2.563672911
'Negli ultimi anni il turismo si propone come fonte di sostentamento dell''intera isola.',164,166037,1950.759693,1950.759731,'4',0.703157696
"'Secondo Nielsen BookScan, il romanzo ha venduto ventinovemila copie tra il 2001 e il 2005.'",50,49566,1955.209051,1956.000004,'5',1.687817903
"'I manipoli erano unità di 60/120 uomini, tutti provenienti da una medesima classe di fanteria.'",192,192449,1961.873517,1962.000004,'4',0.975449713
"'La Middlesex University è un università che si trova nel nord di Londra, Inghilterra.'",369,366511,1967.308524,1968.000004,'4',1.276215777
"'A sua volta ogni comune si divide in cantoni, attualmente sono presenti 989 cantoni.'",91,93053,1973.290223,1974.000005,'5',1.236224985
"'Agli europei indoor di Atene del 1985 concluse terzo con un lancio a 21,23 metri.'",29,34271,1979.261762,1980.000005,'4',0.832273336
"'Il tedesco Bert Grabsch dominò la gara, mantenendo una velocità media di 50km/h.'",97,96348,1985.007151,1986.000005,'5',1.46295198
'KG è un azienda di dolciumi tedesca con sede a Bonn nel quartiere Kessenich.',81,86750,1991.22826,1992.000004,'4',1.017770599
'Alcuni linguisti includono l''alveniate in un gruppo dialettale alverno-limosino in comune con il limosino.',169,170486,1997.007844,1998.000005,'2',0.871093373
"'Infine, Belisario diventa generale nell''esercito di Padway e gli assicura il controllo dell''Italia.'",183,189748,2002.857465,2004.000004,'4',0.940718214
"'Chiaramente, la tribù trae ancora grande orgoglio dalla sua prodezza e dal suo valore militari.'",132,132960,2008.673177,2010.000006,'3',1.007883193
'Tutte le medaglie vengono conferite in forma originale dal Dipartimento della Difesa degli Stati Uniti.',106,112894,2015.171404,2016.000005,'5',1.794914455
"'Ne scaturì una sanguinosa guerra di secessione tra estoni, aiutati dagli Stati occidentali, e russi.'",88,93115,2021.924036,2022.000008,'3',2.077270612
'Dopo la rivoluzione di velluto del 1989 l''azienda diventa società per azioni nel 1990.',84,89302,2028.226008,2028.226047,'4',1.749540879
"'Panzer-Division nasce ufficialmente il 18 ottobre 1939 a Wuppertal''in Vestfalia, da elementi della 1.'",195,195541,2034.007976,2034.008041,'2',1.998759519
"'Nel 1990 la TSR pubblicò una seconda edizione del gioco, etichettandola erroneamente come terza edizione..'",151,151677,2039.98644,2040.000004,'3',1.554555425
"'Nel drive successivo, Hanie guidò i Bears a un secondo touchdown in soli 82 secondi.'",20,21927,2045.740269,2046.000005,'3',1.546487682
'James Poniewozik sul TIME la definì «splendidamente realizzata» e meglio focalizzata rispetto alla prima stagione.',352,349018,2051.74299,2052.000006,'4',2.854638163
'Il gioco è stato creato dal matematico Alain Rivollet e dall''informatico Gaëtan Beaujannot.',153,152181,2059.009655,2059.009694,'4',1.317294899
'Nel caso che i villi coriali riescano a penetrare il miometrio viene definita placenta increta.',123,120264,2064.073576,2064.073632,'2',1.884961824
"'La divisa casalinga era completamente rossa, a strisce verticali nere, pantaloncini neri e calzettoni rossoneri.'",331,332607,2070.175299,2070.175338,'5',2.565323806
"'Simile all''early happy hardcore, definita da un battito più leggero e sonorità rave.'",235,236120,2076.927441,2076.927491,'4',1.248104118
'Nel 2002 Accenture è stata premiata per la sua operazione di rebranding dalla Arthur W.',83,84440,2081.972921,2082.000005,'3',2.36899061
"'È divisa in due parti, corrispondenti al salone a sinistra ed all''albergo a destra.'",54,55957,2088.574415,2088.574475,'3',1.605073522
'Nel 1909 è stato insignito di un Master of Arts honoris causa dall Hobart College.',79,78469,2094.125881,2094.125938,'4',0.775326358
"'Prikoly na peremenke è una serie televisiva russa, adattamento dell''italiana Quelli dell''intervallo.'",351,353168,2099.056991,2100.000006,'3',1.021988911
"'Fino alla finale l''Errani, partendo dalle qualificazioni, ha incontrato solo tenniste americane battendole tutte.'",363,365970,2104.606201,2106.000006,'2',1.34824258
"'I sadlermuit, come nella vicina isola di Southampton, si estinsero contraendo malattie dagli occidentali.'",167,164509,2111.288963,2112.000004,'3',2.630584982
"'Tipu inviò una lettera il 19 gennaio 1790 al governatore di Bekal, Budruz Zuman Khan.'",204,207609,2118.604866,2118.604914,'2',2.115492436
"'Però, la frase nominativa incl. l''articolo, nome e aggettivo mostra tutte le possibilità'",170,172388,2124.907689,2124.907755,'1',1.140504634
"'Lasciati gli Hornets, dal 1991 al 2001 fu capo allenatore dei Golden State Warriors.'",42,44075,2129.832497,2130.000006,'4',1.613556089
"'Con l''aiuto del padre ha aperto un ristorante in Odaiba, Tokyo chiamato Kamei-do.'",232,228368,2135.57275,2136.000006,'4',1.375775951
'L''ambientazione è stata concessa in licenza due volte per giochi di carte collezionabili.',150,151275,2141.157039,2142.000006,'4',2.367169719
'L''11 luglio 2017 rinnovò il suo contratto con i Pistons per altri 2 anni.',41,43599,2148.169625,2148.169664,'5',1.415282504
"'Al contrario di Xiaomu, Saya è dalla parte dell''organizzazione rivale della Shinra Ouma.'",374,376031,2153.570124,2154.000004,'3',1.064365163
'Scorre poi lungo il confine con Meduna di Livenza e la provincia di Treviso.',278,280438,2158.88535,2160.000004,'4',1.719230904
"'Con essi disputò 37 gare su 41 come titolare, con 9 intercetti e un sack.'",18,23770,2165.675176,2166.000006,'4',1.893723206
'Questa pagina raccoglie i dati riguardanti il Vålerenga Fotball nelle competizioni ufficiali della stagione 1999.',302,305457,2172.009015,2172.009054,'5',0.581621045
"'L''abitato venne fondato dai fratelli Pancracio, Nicolás, Ezequiel''e Sinforoso Vargas nel 1794.'",259,254598,2176.787686,2178.000011,'3',1.023741661
'Le isole Lup_i sono un gruppo di quattro piccole isolette russe nel Mar Bianco.',165,166959,2182.589352,2184.000006,'5',0.678284657
"'Fu rivisto e adattato agli altri racconti, quando fu inserito nella raccolta Mulliner Nights.'",51,49018,2188.657763,2190.000004,'4',0.725117499
'Molti di questi velivoli furono distrutti in questo tipo di attacchi nei mesi successivi.',1,379,2194.674223,2196.000006,'4',0.710666773
"'La più importante nel 1980 quando cambiarono i paraurti, i comandi e le finiture.'",38,38297,2200.670217,2202.000004,'4',1.500198479
'Partenza a Sint-Niklaas con 185 corridori di cui 111 portarono a termine il percorso.',98,98529,2207.490602,2208.000005,'2',2.192405852
'Le elezioni al Kurultaj che coinvolgono tutta la popolazione tatara avvengono ogni cinque anni.',131,134281,2214.140286,2214.14039,'3',1.474118266
"'Novák, tuttavia, respinse l''offerta e insieme a molti altri aviatori cecoslovacchi fuggì all''estero.'",188,186062,2219.593285,2220.000007,'3',2.052333651
"'Più a valle sbocca nel Cigüela, da sinistra, molto vicino agli Ojos del Guadiana.'",280,280187,2225.774642,2226.000004,'3',1.194857416
"'Portabandiera alla cerimonia d apertura è stata la trentottenne Valentyna Šev_enko, alla sua quinta Olimpiade.'",339,339192,2231.156409,2232.000005,'5',0.968812229
"'Contrariamente alla vasta area coperta dall''arcipelago, copre una superficie terrestre di soli 885km2.'",162,164873,2237.135972,2238.000005,'3',2.680922055
"'I velivoli portavano, oltre alle coccarde ed alle insegne francesi, anche quella polacca in fusoliera.'",5,3864,2244.433882,2244.433934,'3',1.61213336
"'Per il campionato 2017-18 veste la maglia del Volley Milano, sempre in Serie A1.'",380,380693,2250.187319,2250.187358,'5',1.168714078
'Il monte è collocato a nord-est di Cortina d Ampezzo e ad ovest di Misurina.',221,218773,2255.338916,2256.000004,'4',1.507862436
"'La Bol šaja è un fiume della Russia europea meridionale, affluente di sinistra della Kalitva.'",282,279836,2261.671837,2262.000004,'4',0.70162125
"'Eletto deputato all''Assemblée nationale nel 1993, è il deputato più giovane della legislatura.'",253,251488,2266.873829,2268.000006,'5',1.046882565
"'Si sposò con Rosalind Turner, dalla quale ebbe due figli James, scrittore, e Rebecca.'",77,80688,2272.837103,2274.000004,'4',1.44861015
"'Nella prima scena dello Stage 1, C.C. osserva il piccolo Lelouch indossando proprio abiti giapponesi.'",135,141928,[],[],[],[]
'Dati aggiornati alla conclusione dei Campionati europei di nuoto in vasca corta 2009 di Istanbul.',344,342832,[],[],[],[]
"'Nel 1927 venne ripristinata la facciata, che riflette le linee del sezionamento delle navate.'",277,272400,[],[],[],[]
'L''intero genere può creare diversi sottogeneri grazie alla sua combinazione fra ritmo e armonia.',240,239655,[],[],[],[]